File: reference_lib/Carbonate_Fe_2520_FeCalcite_Siderite_01.csv
Wavelength (nm),Reflectance (%)
448,49.61
452,50.63
456,51.5
460,51.98
464,52.46
468,52.96
472,53.54
476,54.01
480,54.49
484,54.88
488,55.17
492,55.32
496,55.45
500,55.59
504,55.86
508,56.14
512,56.37
516,56.62
520,56.82
524,57.06
528,57.23
532,57.36
536,57.53
540,57.64
544,57.74
548,57.85
552,58.03
556,58.12
560,58.21
564,58.29
568,58.37
572,58.51
576,58.54
580,58.53
584,58.56
588,58.62
592,58.65
596,58.65
600,58.65
604,58.68
608,58.66
612,58.61
616,58.57
620,58.55
624,58.48
628,58.46
632,58.45
636,58.41
640,58.44
644,58.42
648,58.34
652,58.31
656,58.28
660,58.24
664,58.21
668,58.15
672,58.07
676,58.01
680,57.97
684,57.93
688,57.89
692,57.87
696,57.82
700,57.75
704,57.66
708,57.47
712,57.39
716,57.33
720,57.28
724,57.22
728,57.22
732,57.12
736,57.04
740,56.98
744,56.97
748,56.94
752,56.89
756,56.83
760,56.75
764,56.65
768,56.52
772,56.45
776,56.33
780,56.18
784,56.03
788,55.85
792,55.71
796,55.59
800,55.49
804,55.38
808,55.19
812,55.01
816,54.85
820,54.7
824,54.6
828,54.6
832,54.55
836,54.38
840,54.2
844,54
848,53.83
852,53.74
856,53.62
860,53.5
864,53.34
868,53.14
872,52.87
876,52.59
880,52.29
884,52
888,51.74
892,51.54
896,51.36
900,51.08
904,50.74
908,50.37
912,50.03
916,49.7
920,49.39
924,49.09
928,48.79
932,48.53
936,48.24
940,47.87
944,47.49
948,47.15
952,46.82
956,46.5
960,46.23
964,45.98
968,45.71
972,45.43
976,45.1
980,44.78
984,44.5
988,44.26
992,44
996,43.7
1000,43.4
1004,43.11
1008,42.85
1012,42.58
1016,42.36
1020,42.13
1024,41.87
1028,41.61
1032,41.36
1036,41.12
1040,40.93
1044,40.71
1048,40.48
1052,40.25
1056,40.08
1060,39.9
1064,39.71
1068,39.53
1072,39.38
1076,39.24
1080,39.08
1084,38.97
1088,38.89
1092,38.76
1096,38.6
1100,38.49
1104,38.4
1108,38.35
1112,38.25
1116,38.16
1120,38.05
1124,37.98
1128,37.9
1132,37.85
1136,37.83
1140,37.84
1144,37.84
1148,37.8
1152,37.79
1156,37.78
1160,37.72
1164,37.67
1168,37.68
1172,37.67
1176,37.64
1180,37.64
1184,37.6
1188,37.56
1192,37.56
1196,37.59
1200,37.63
1204,37.6
1208,37.55
1212,37.63
1216,37.71
1220,37.76
1224,37.76
1228,37.74
1232,37.71
1236,37.71
1240,37.71
1244,37.75
1248,37.77
1252,37.73
1256,37.69
1260,37.65
1264,37.59
1268,37.53
1272,37.48
1276,37.44
1280,37.42
1284,37.34
1288,37.23
1292,37.16
1296,37.17
1300,37.21
1304,37.19
1308,37.17
1312,37.16
1316,37.12
1320,37.03
1324,36.97
1328,36.94
1332,36.92
1336,36.88
1340,36.79
1344,36.72
1348,36.66
1352,36.53
1356,36.44
1360,36.36
1364,36.3
1368,36.26
1372,36.23
1376,36.15
1380,36.08
1384,36.01
1388,35.93
1392,35.84
1396,35.78
1400,35.72
1404,35.65
1408,35.56
1412,35.44
1416,35.38
1420,35.34
1424,35.34
1428,35.41
1432,35.48
1436,35.49
1440,35.48
1444,35.46
1448,35.41
1452,35.43
1456,35.48
1460,35.54
1464,35.57
1468,35.65
1472,35.7
1476,35.78
1480,35.85
1484,35.94
1488,36.05
1492,36.08
1496,36.08
1500,36.13
1504,36.19
1508,36.35
1512,36.53
1516,36.62
1520,36.7
1524,36.75
1528,36.87
1532,37.03
1536,37.2
1540,37.35
1544,37.55
1548,37.77
1552,37.9
1556,38
1560,38.1
1564,38.26
1568,38.44
1572,38.61
1576,38.78
1580,38.96
1584,39.15
1588,39.33
1592,39.51
1596,39.74
1600,39.96
1604,40.12
1608,40.25
1612,40.4
1616,40.53
1620,40.67
1624,40.83
1628,40.83
1632,40.88
1636,40.98
1640,41.07
1644,41.04
1648,41.05
1652,41.3
1656,41.49
1660,41.61
1664,41.6
1668,41.61
1672,41.74
1676,41.9
1680,41.96
1684,41.94
1688,41.96
1692,42.12
1696,42.32
1700,42.46
1704,42.49
1708,42.52
1712,42.57
1716,42.68
1720,42.79
1724,42.83
1728,42.83
1732,42.78
1736,42.7
1740,42.67
1744,42.75
1748,42.95
1752,43.11
1756,43.21
1760,43.24
1764,43.37
1768,43.54
1772,43.64
1776,43.68
1780,43.75
1784,43.91
1788,44
1792,44.04
1796,43.99
1800,43.95
1804,44.04
1808,44.07
1812,44
1816,43.97
1820,43.97
1824,43.95
1828,43.84
1832,43.62
1836,43.39
1840,43.25
1844,43.1
1848,43.06
1852,43.01
1856,42.68
1860,42.3
1864,41.83
1868,41.34
1872,40.85
1876,40.68
1880,40.84
1884,41.13
1888,41.29
1892,41.16
1896,40.8
1900,40.34
1904,39.99
1908,39.73
1912,39.42
1916,39.18
1920,38.97
1924,38.99
1928,38.98
1932,38.88
1936,38.84
1940,38.64
1944,38.62
1948,38.59
1952,38.61
1956,38.64
1960,38.66
1964,38.71
1968,38.65
1972,38.59
1976,38.49
1980,38.47
1984,38.46
1988,38.33
1992,38.22
1996,38.27
2000,38.66
2004,39.2
2008,39.72
2012,40.19
2016,40.57
2020,40.93
2024,41.27
2028,41.64
2032,41.99
2036,42.12
2040,42.23
2044,42.35
2048,42.4
2052,42.47
2056,42.6
2060,42.72
2064,42.79
2068,42.83
2072,42.89
2076,42.97
2080,43.06
2084,43.1
2088,43.09
2092,42.98
2096,42.83
2100,42.68
2104,42.55
2108,42.37
2112,42.26
2116,42.13
2120,41.96
2124,41.79
2128,41.55
2132,41.25
2136,40.83
2140,40.32
2144,39.78
2148,39.31
2152,39.13
2156,39.17
2160,39.34
2164,39.55
2168,39.83
2172,40.08
2176,40.26
2180,40.35
2184,40.31
2188,40.22
2192,40.13
2196,39.95
2200,39.74
2204,39.53
2208,39.28
2212,39
2216,38.57
2220,38.07
2224,37.58
2228,37.11
2232,36.54
2236,35.84
2240,35.16
2244,34.48
2248,33.75
2252,32.85
2256,32.06
2260,31.38
2264,30.62
2268,29.6
2272,28.52
2276,27.53
2280,26.6
2284,25.79
2288,25.05
2292,24.41
2296,23.85
2300,23.36
2304,22.93
2308,22.49
2312,22.02
2316,21.5
2320,20.97
2324,20.42
2328,19.96
2332,19.52
2336,19.3
2340,19.36
2344,19.83
2348,20.69
2352,22.06
2356,23.82
2360,25.65
2364,27.36
2368,28.77
2372,29.86
2376,30.69
2380,31.39
2384,31.96
2388,32.38
2392,32.57
2396,32.61
2400,32.58
2404,32.55
2408,32.42
2412,32.28
2416,31.92
2420,31.32
2424,30.59
2428,29.83
2432,29.09
2436,28.36
2440,27.65
2444,26.92
2448,26.11
2452,25.21
2456,24.3
2460,23.39
2464,22.54
2468,21.74
2472,21.07
2476,20.42
2480,19.93
2484,19.89
2488,20.01
2492,20.03
2496,20
2500,20.46