File: reference_lib/Carbonate_2520_Magnesite_Ni_01.csv
Wavelength (nm),Reflectance (%)
452,50.94
454,52.01
456,52.85
458,53.7
460,54.53
462,55.17
464,55.74
466,56.24
468,56.62
470,57.04
472,57.56
474,57.88
476,58.15
478,58.74
480,59.36
482,59.82
484,60.3
486,60.83
488,61.48
490,62.27
492,63.08
494,63.86
496,64.64
498,65.45
500,66.3
502,67.06
504,67.74
506,68.36
508,68.89
510,69.42
512,69.96
514,70.54
516,71.18
518,71.79
520,72.21
522,72.55
524,72.95
526,73.43
528,73.96
530,74.35
532,74.66
534,75.09
536,75.59
538,76.03
540,76.45
542,76.85
544,77.19
546,77.49
548,77.72
550,77.96
552,78.38
554,78.85
556,79.26
558,79.69
560,79.99
562,80.17
564,80.48
566,80.82
568,81.08
570,81.34
572,81.56
574,81.65
576,81.69
578,81.82
580,82.02
582,82.24
584,82.38
586,82.49
588,82.62
590,82.71
592,82.71
594,82.8
596,82.97
598,82.96
600,82.79
602,82.8
604,82.89
606,82.82
608,82.69
610,82.63
612,82.65
614,82.67
616,82.54
618,82.21
620,81.8
622,81.47
624,81.37
626,81.38
628,81.26
630,81.08
632,80.87
634,80.52
636,80.12
638,79.79
640,79.52
642,79.24
644,79.01
646,78.75
648,78.21
650,77.41
652,76.6
654,76.04
656,75.77
658,75.61
660,75.37
662,74.92
664,74.4
666,73.9
668,73.28
670,72.55
672,71.81
674,71.19
676,70.85
678,70.84
680,70.98
682,71.27
684,71.69
686,71.92
688,71.9
690,71.8
692,71.5
694,71.1
696,70.81
698,70.68
700,70.6
702,70.53
704,70.44
706,70.44
708,70.49
710,70.4
712,70.29
714,70.15
716,69.85
718,69.56
720,69.29
722,69
724,68.71
726,68.5
728,68.36
730,68.12
732,67.88
734,67.72
736,67.45
738,67.15
740,67
742,66.96
744,66.79
746,66.53
748,66.36
750,66.31
752,66.31
754,66.34
756,66.43
758,66.51
760,66.62
762,66.79
764,66.93
766,67
768,67.1
770,67.34
772,67.63
774,67.93
776,68.2
778,68.36
780,68.63
782,69.08
784,69.58
786,70
788,70.35
790,70.68
792,71.02
794,71.37
796,71.74
798,72.29
800,72.88
802,73.34
804,73.79
806,74.33
808,74.85
810,75.35
812,75.93
814,76.48
816,76.8
818,77.21
820,77.93
822,78.61
824,79.14
826,79.68
828,80.17
830,80.71
832,81.38
834,81.38
836,81.64
838,81.94
840,82.5
842,83.15
844,83.6
846,84.13
848,84.7
850,85.22
852,85.84
854,86.41
856,86.83
858,87.29
860,87.91
862,88.56
864,89.18
866,89.75
868,90.18
870,90.77
872,91.45
874,91.95
876,92.56
878,93.17
880,93.46
882,93.86
884,94.39
886,94.83
888,95.31
890,95.74
892,96.12
894,96.51
896,96.78
898,96.96
900,97.26
902,97.58
904,97.76
906,98.1
908,98.51
910,98.67
912,98.9
914,99.17
916,99.39
918,99.62
920,99.67
922,99.65
924,99.79
926,99.81
928,99.78
930,99.77
932,99.85
934,99.99
936,100
938,99.9
940,99.77
942,99.75
944,99.79
946,99.77
948,99.73
950,99.46
952,99.23
954,99.22
956,99.14
958,99.01
960,98.93
962,98.74
964,98.53
966,98.31
968,98.02
970,97.9
972,97.73
974,97.55
976,97.35
978,97.02
980,96.73
982,96.41
984,96.19
986,96.06
988,95.84
990,95.59
992,95.23
994,94.91
996,94.7
998,94.49
1000,94.22
1002,93.83
1004,93.57
1006,93.43
1008,93.13
1010,92.79
1012,92.55
1014,92.36
1016,92.18
1018,91.8
1020,91.34
1022,90.94
1024,90.59
1026,90.31
1028,89.95
1030,89.67
1032,89.46
1034,88.94
1036,88.45
1038,88.13
1040,87.94
1042,87.82
1044,87.46
1046,87.2
1048,86.99
1050,86.65
1052,86.32
1054,85.96
1056,85.66
1058,85.35
1060,84.93
1062,84.56
1064,84.32
1066,84.05
1068,83.59
1070,83.2
1072,82.87
1074,82.39
1076,82.03
1078,81.78
1080,81.56
1082,81.49
1084,81.16
1086,80.64
1088,80.42
1090,80.2
1092,79.85
1094,79.56
1096,79.29
1098,78.9
1100,78.46
1102,78.1
1104,77.84
1106,77.76
1108,77.54
1110,77.05
1112,76.7
1114,76.37
1116,76.15
1118,75.86
1120,75.32
1122,75.19
1124,75.17
1126,74.73
1128,74.33
1130,73.99
1132,73.58
1134,73.28
1136,73.1
1138,73
1140,72.71
1142,72.29
1144,72.01
1146,71.83
1148,71.63
1150,71.3
1152,71
1154,70.74
1156,70.42
1158,70.21
1160,70.08
1162,70.01
1164,70
1166,69.7
1168,69.44
1170,69.3
1172,69
1174,68.86
1176,68.73
1178,68.48
1180,68.29
1182,68.15
1184,67.8
1186,67.45
1188,67.5
1190,67.42
1192,67.2
1194,67.07
1196,66.81
1198,66.66
1200,66.85
1202,66.95
1204,66.89
1206,66.71
1208,66.49
1210,66.51
1212,66.51
1214,66.43
1216,66.29
1218,65.96
1220,65.89
1222,65.91
1224,65.78
1226,65.61
1228,65.43
1230,65.37
1232,65.27
1234,65.22
1236,65.22
1238,65.26
1240,65.28
1242,65.12
1244,65.2
1246,65.31
1248,65.07
1250,64.98
1252,65.07
1254,65.1
1256,65.04
1258,64.87
1260,64.78
1262,64.8
1264,64.76
1266,64.64
1268,64.56
1270,64.51
1272,64.43
1274,64.48
1276,64.48
1278,64.43
1280,64.44
1282,64.35
1284,64.46
1286,64.78
1288,64.84
1290,64.89
1292,64.91
1294,64.76
1296,64.74
1298,64.74
1300,64.95
1302,65.17
1304,64.92
1306,64.67
1308,64.79
1310,64.88
1312,64.75
1314,64.58
1316,64.46
1318,64.62
1320,64.96
1322,65.06
1324,65.12
1326,65.17
1328,64.9
1330,64.8
1332,65
1334,65.09
1336,65.22
1338,65.2
1340,65.08
1342,65.07
1344,64.94
1346,64.84
1348,64.9
1350,65.12
1352,65.27
1354,65.08
1356,64.88
1358,64.73
1360,64.77
1362,65.13
1364,65.38
1366,65.63
1368,65.73
1370,65.69
1372,65.69
1374,65.57
1376,65.61
1378,65.58
1380,65.4
1382,65.37
1384,65.35
1386,65.44
1388,65.79
1390,65.98
1392,65.75
1394,65.57
1396,65.41
1398,64.96
1400,64.75
1402,64.81
1404,64.65
1406,64.72
1408,64.71
1410,64.33
1412,64.06
1414,63.84
1416,63.86
1418,64.04
1420,64.21
1422,64.49
1424,64.61
1426,64.55
1428,64.51
1430,64.64
1432,64.81
1434,64.73
1436,64.68
1438,64.77
1440,64.88
1442,65.03
1444,65.01
1446,65.05
1448,65.14
1450,65.2
1452,65.4
1454,65.44
1456,65.53
1458,65.78
1460,65.8
1462,65.57
1464,65.4
1466,65.34
1468,65.35
1470,65.41
1472,65.41
1474,65.39
1476,65.52
1478,65.52
1480,65.61
1482,65.95
1484,66.15
1486,66.35
1488,66.36
1490,66.01
1492,66.04
1494,66.13
1496,66.08
1498,66.06
1500,65.87
1502,65.88
1504,65.95
1506,65.83
1508,65.78
1510,65.85
1512,65.87
1514,65.92
1516,66.08
1518,66
1520,65.86
1522,65.91
1524,65.98
1526,66.16
1528,66.32
1530,66.23
1532,66.27
1534,66.35
1536,66.4
1538,66.38
1540,66.27
1542,66.33
1544,66.27
1546,66.33
1548,66.63
1550,66.79
1552,66.75
1554,66.74
1556,66.95
1558,67.13
1560,67.16
1562,67.25
1564,67.43
1566,67.87
1568,68.13
1570,67.95
1572,68
1574,68.07
1576,68.16
1578,68.33
1580,68.34
1582,68.4
1584,68.4
1586,68.44
1588,68.51
1590,68.59
1592,68.65
1594,68.7
1596,68.77
1598,68.86
1600,68.95
1602,68.99
1604,69.03
1606,69.08
1608,69.13
1610,69.18
1612,69.18
1614,69.15
1616,69.1
1618,69.06
1620,69.02
1622,68.99
1624,68.98
1626,69.02
1628,69.08
1630,69.13
1632,69.15
1634,69.15
1636,69.14
1638,69.18
1640,69.24
1642,69.29
1644,69.32
1646,69.33
1648,69.3
1650,69.27
1652,69.27
1654,69.27
1656,69.25
1658,69.23
1660,69.22
1662,69.2
1664,69.2
1666,69.22
1668,69.22
1670,69.14
1672,69.03
1674,68.91
1676,68.79
1678,68.67
1680,68.56
1682,68.42
1684,68.28
1686,68.15
1688,68.03
1690,67.92
1692,67.84
1694,67.77
1696,67.71
1698,67.65
1700,67.6
1702,67.53
1704,67.45
1706,67.39
1708,67.34
1710,67.3
1712,67.27
1714,67.26
1716,67.25
1718,67.21
1720,67.17
1722,67.14
1724,67.11
1726,67.08
1728,67.06
1730,67.06
1732,67.08
1734,67.11
1736,67.16
1738,67.26
1740,67.38
1742,67.5
1744,67.6
1746,67.68
1748,67.74
1750,67.77
1752,67.79
1754,67.79
1756,67.76
1758,67.71
1760,67.64
1762,67.54
1764,67.44
1766,67.35
1768,67.25
1770,67.08
1772,66.87
1774,66.64
1776,66.45
1778,66.31
1780,66.18
1782,66.02
1784,65.85
1786,65.68
1788,65.52
1790,65.35
1792,65.17
1794,64.92
1796,64.63
1798,64.34
1800,64.09
1802,63.8
1804,63.5
1806,63.23
1808,62.98
1810,62.7
1812,62.42
1814,62.16
1816,61.88
1818,61.58
1820,61.31
1822,61.08
1824,60.89
1826,60.69
1828,60.46
1830,60.19
1832,59.87
1834,59.51
1836,59.13
1838,58.78
1840,58.46
1842,58.17
1844,57.91
1846,57.77
1848,57.76
1850,57.91
1852,58.23
1854,58.76
1856,59.48
1858,60.3
1860,61.09
1862,61.72
1864,62.11
1866,62.27
1868,62.2
1870,62.01
1872,61.79
1874,61.54
1876,61.15
1878,60.6
1880,59.92
1882,59.15
1884,58.34
1886,57.48
1888,56.57
1890,55.62
1892,54.64
1894,53.6
1896,52.54
1898,51.52
1900,50.61
1902,49.73
1904,48.85
1906,48.02
1908,47.25
1910,46.54
1912,45.91
1914,45.41
1916,44.93
1918,44.44
1920,43.99
1922,43.55
1924,43.11
1926,42.7
1928,42.37
1930,42.07
1932,41.77
1934,41.49
1936,41.24
1938,41.02
1940,40.81
1942,40.62
1944,40.43
1946,40.26
1948,40.09
1950,39.9
1952,39.71
1954,39.52
1956,39.33
1958,39.16
1960,39
1962,38.85
1964,38.7
1966,38.53
1968,38.37
1970,38.24
1972,38.17
1974,38.15
1976,38.19
1978,38.29
1980,38.48
1982,38.72
1984,38.98
1986,39.22
1988,39.44
1990,39.61
1992,39.75
1994,39.9
1996,40.03
1998,40.12
2000,40.15
2002,40.16
2004,40.18
2006,40.25
2008,40.32
2010,40.36
2012,40.4
2014,40.47
2016,40.52
2018,40.56
2020,40.62
2022,40.7
2024,40.77
2026,40.84
2028,40.92
2030,41.03
2032,41.12
2034,41.13
2036,41.1
2038,41.07
2040,41.1
2042,41.15
2044,41.21
2046,41.28
2048,41.31
2050,41.33
2052,41.36
2054,41.36
2056,41.35
2058,41.36
2060,41.41
2062,41.45
2064,41.51
2066,41.54
2068,41.57
2070,41.62
2072,41.75
2074,41.89
2076,42
2078,42.06
2080,42.1
2082,42.18
2084,42.27
2086,42.37
2088,42.46
2090,42.56
2092,42.67
2094,42.79
2096,42.93
2098,43.08
2100,43.2
2102,43.21
2104,43.17
2106,43.17
2108,43.24
2110,43.33
2112,43.35
2114,43.33
2116,43.32
2118,43.35
2120,43.4
2122,43.48
2124,43.58
2126,43.68
2128,43.76
2130,43.87
2132,44.06
2134,44.33
2136,44.63
2138,44.94
2140,45.22
2142,45.49
2144,45.73
2146,45.9
2148,46.01
2150,46.12
2152,46.22
2154,46.27
2156,46.28
2158,46.23
2160,46.14
2162,46.07
2164,46.02
2166,45.91
2168,45.72
2170,45.47
2172,45.26
2174,45.08
2176,44.89
2178,44.66
2180,44.38
2182,44.1
2184,43.8
2186,43.5
2188,43.15
2190,42.78
2192,42.38
2194,41.94
2196,41.48
2198,41
2200,40.47
2202,39.85
2204,39.08
2206,38.25
2208,37.52
2210,36.95
2212,36.5
2214,36.13
2216,35.72
2218,35.18
2220,34.57
2222,33.96
2224,33.36
2226,32.71
2228,32.01
2230,31.24
2232,30.36
2234,29.42
2236,28.5
2238,27.55
2240,26.62
2242,25.7
2244,24.86
2246,24.16
2248,23.55
2250,22.98
2252,22.45
2254,21.94
2256,21.52
2258,21.19
2260,20.92
2262,20.65
2264,20.35
2266,20.1
2268,19.9
2270,19.71
2272,19.56
2274,19.38
2276,19.14
2278,18.94
2280,18.86
2282,18.84
2284,18.8
2286,18.74
2288,18.59
2290,18.27
2292,17.87
2294,17.52
2296,17.27
2298,17.16
2300,17.22
2302,17.42
2304,17.74
2306,18.12
2308,18.55
2310,18.99
2312,19.43
2314,19.88
2316,20.37
2318,21.04
2320,21.99
2322,23.08
2324,24.19
2326,25.32
2328,26.55
2330,27.94
2332,29.4
2334,30.87
2336,32.29
2338,33.62
2340,34.8
2342,35.69
2344,36.26
2346,36.55
2348,36.57
2350,36.49
2352,36.4
2354,36.19
2356,35.84
2358,35.34
2360,34.75
2362,34.08
2364,33.42
2366,32.95
2368,32.69
2370,32.53
2372,32.35
2374,32.04
2376,31.61
2378,31.09
2380,30.54
2382,30.03
2384,29.48
2386,28.81
2388,28.13
2390,27.42
2392,26.65
2394,25.88
2396,25.17
2398,24.5
2400,23.73
2402,22.94
2404,22.21
2406,21.51
2408,20.79
2410,20.06
2412,19.33
2414,18.65
2416,17.95
2418,17.2
2420,16.54
2422,15.83
2424,15.06
2426,14.27
2428,13.48
2430,12.75
2432,12.02
2434,11.39
2436,10.78
2438,10.11
2440,9.43
2442,8.84
2444,8.24
2446,7.65
2448,7.07
2450,6.56
2452,6.16
2454,5.78
2456,5.41
2458,5.09
2460,4.88
2462,4.66
2464,4.35
2466,4.04
2468,3.81
2470,3.61
2472,3.46
2474,3.33
2476,3.08
2478,2.81
2480,2.51
2482,2.19
2484,1.91
2486,1.62
2488,1.28
2490,0.95
2492,0.68
2494,0.51
2496,0.35
2498,0.18
2500,0.07
2502,0.01
2504,0
2506,0.07
2508,0.2
2510,0.42
2512,0.74
2514,1.11
2516,1.62
2518,2.28
2520,2.96
2522,3.71
2524,4.62
2526,5.66
2528,6.77
2530,7.99
2532,9.41
2534,10.97
2536,12.51
2538,13.78
2540,14.8
2542,15.86
2544,16.9
2546,17.57
2548,18.13
2550,18.67
2552,18.97
2554,19.36
2556,19.81
2558,20.35
2560,21.11