File: reference_lib/Hydrous-Silica_02.csv
Wavelength (nm),Reflectance (%)
448,91.12
452,91.78
456,92.37
460,92.89
464,93.34
468,93.72
472,94.02
476,94.25
480,94.6
484,94.89
488,95.04
492,95.16
496,95.24
500,95.5
504,95.82
508,96.06
512,96.31
516,96.55
520,96.8
524,97.13
528,97.38
532,97.66
536,97.91
540,98.14
544,98.23
548,98.33
552,98.47
556,98.58
560,98.64
564,98.71
568,98.78
572,98.84
576,98.9
580,99.02
584,99.15
588,99.28
592,99.34
596,99.35
600,99.37
604,99.36
608,99.41
612,99.44
616,99.51
620,99.55
624,99.57
628,99.6
632,99.64
636,99.69
640,99.79
644,99.83
648,99.9
652,99.93
656,99.96
660,99.99
664,99.99
668,100
672,99.99
676,99.98
680,99.96
684,99.94
688,99.91
692,99.87
696,99.81
700,99.72
704,99.65
708,99.57
712,99.47
716,99.39
720,99.27
724,99.16
728,99.01
732,98.86
736,98.69
740,98.52
744,98.4
748,98.27
752,98.13
756,98.01
760,97.88
764,97.73
768,97.57
772,97.45
776,97.33
780,97.2
784,97.07
788,96.93
792,96.77
796,96.58
800,96.43
804,96.25
808,96.07
812,95.87
816,95.69
820,95.49
824,95.31
828,95.12
832,94.9
836,94.65
840,94.41
844,94.2
848,94.02
852,93.86
856,93.74
860,93.57
864,93.38
868,93.19
872,92.98
876,92.79
880,92.61
884,92.42
888,92.23
892,92.09
896,91.97
900,91.8
904,91.56
908,91.29
912,90.92
916,90.62
920,90.44
924,90.44
928,90.09
932,89.73
936,89.36
940,88.85
944,88.06
948,87.39
952,86.73
956,86.09
960,85.61
964,85.24
968,84.93
972,84.75
976,84.62
980,84.52
984,84.46
988,84.45
992,84.49
996,84.49
1000,84.5
1004,84.51
1008,84.5
1012,84.5
1016,84.52
1020,84.54
1024,84.57
1028,84.6
1032,84.62
1036,84.61
1040,84.59
1044,84.54
1048,84.48
1052,84.43
1056,84.36
1060,84.27
1064,84.15
1068,84.03
1072,83.88
1076,83.7
1080,83.51
1084,83.28
1088,83.03
1092,82.78
1096,82.51
1100,82.23
1104,81.94
1108,81.62
1112,81.28
1116,80.89
1120,80.45
1124,79.92
1128,79.25
1132,78.41
1136,77.39
1140,76.25
1144,75.09
1148,74.02
1152,73.15
1156,72.55
1160,72.15
1164,71.91
1168,71.75
1172,71.62
1176,71.5
1180,71.35
1184,71.21
1188,71.07
1192,70.92
1196,70.8
1200,70.68
1204,70.61
1208,70.56
1212,70.48
1216,70.42
1220,70.37
1224,70.31
1228,70.23
1232,70.13
1236,70.02
1240,69.9
1244,69.78
1248,69.66
1252,69.57
1256,69.48
1260,69.36
1264,69.21
1268,69.02
1272,68.81
1276,68.57
1280,68.3
1284,68
1288,67.64
1292,67.23
1296,66.78
1300,66.29
1304,65.75
1308,65.15
1312,64.49
1316,63.74
1320,62.91
1324,62.01
1328,61.05
1332,60.09
1336,59.14
1340,58.22
1344,57.35
1348,56.55
1352,55.79
1356,55.04
1360,54.18
1364,53.18
1368,51.91
1372,50.23
1376,48.15
1380,45.66
1384,42.87
1388,39.91
1392,36.92
1396,34.14
1400,31.68
1404,29.62
1408,28
1412,26.81
1416,25.97
1420,25.36
1424,24.91
1428,24.57
1432,24.3
1436,24.09
1440,23.91
1444,23.77
1448,23.65
1452,23.57
1456,23.56
1460,23.64
1464,23.82
1468,24.1
1472,24.46
1476,24.89
1480,25.39
1484,25.9
1488,26.46
1492,27.04
1496,27.6
1500,28.16
1504,28.73
1508,29.32
1512,29.94
1516,30.57
1520,31.21
1524,31.84
1528,32.43
1532,32.99
1536,33.53
1540,34.04
1544,34.53
1548,35
1552,35.44
1556,35.85
1560,36.24
1564,36.61
1568,36.94
1572,37.27
1576,37.59
1580,37.88
1584,38.15
1588,38.38
1592,38.6
1596,38.82
1600,38.99
1604,39.14
1608,39.31
1612,39.47
1616,39.55
1620,39.62
1624,39.69
1628,39.69
1632,39.73
1636,39.76
1640,39.78
1644,39.81
1648,39.82
1652,39.8
1656,39.77
1660,39.74
1664,39.7
1668,39.66
1672,39.61
1676,39.53
1680,39.45
1684,39.33
1688,39.18
1692,39
1696,38.83
1700,38.64
1704,38.4
1708,38.17
1712,37.94
1716,37.63
1720,37.31
1724,36.97
1728,36.62
1732,36.23
1736,35.81
1740,35.39
1744,34.91
1748,34.34
1752,33.75
1756,33.18
1760,32.63
1764,32.15
1768,31.73
1772,31.37
1776,31.05
1780,30.74
1784,30.45
1788,30.25
1792,30.07
1796,29.95
1800,29.85
1804,29.78
1808,29.74
1812,29.67
1816,29.57
1820,29.45
1824,29.26
1828,29
1832,28.73
1836,28.33
1840,27.88
1844,27.25
1848,26.44
1852,25.42
1856,24.16
1860,22.52
1864,20.54
1868,18.2
1872,15.65
1876,12.94
1880,10.23
1884,7.71
1888,5.55
1892,3.79
1896,2.43
1900,1.5
1904,0.93
1908,0.59
1912,0.36
1916,0.18
1920,0.07
1924,0.02
1928,0
1932,0.03
1936,0.09
1940,0.17
1944,0.27
1948,0.38
1952,0.51
1956,0.68
1960,0.87
1964,1.05
1968,1.26
1972,1.49
1976,1.72
1980,1.99
1984,2.27
1988,2.56
1992,2.85
1996,3.13
2000,3.41
2004,3.7
2008,3.99
2012,4.28
2016,4.58
2020,4.87
2024,5.18
2028,5.49
2032,5.81
2036,6.12
2040,6.44
2044,6.76
2048,7.11
2052,7.41
2056,7.64
2060,7.88
2064,8.16
2068,8.47
2072,8.78
2076,9.11
2080,9.48
2084,9.88
2088,10.15
2092,10.44
2096,10.75
2100,11.08
2104,11.36
2108,11.64
2112,11.92
2116,12.19
2120,12.45
2124,12.67
2128,12.86
2132,13.02
2136,13.17
2140,13.3
2144,13.41
2148,13.51
2152,13.58
2156,13.61
2160,13.6
2164,13.56
2168,13.5
2172,13.41
2176,13.29
2180,13.17
2184,13.02
2188,12.81
2192,12.59
2196,12.34
2200,12.07
2204,11.83
2208,11.62
2212,11.48
2216,11.42
2220,11.38
2224,11.37
2228,11.38
2232,11.36
2236,11.33
2240,11.27
2244,11.21
2248,11.16
2252,11.12
2256,11.09
2260,11.07
2264,11.07
2268,11.05
2272,11.03
2276,10.99
2280,10.97
2284,10.96
2288,10.94
2292,10.93
2296,10.92
2300,10.89
2304,10.87
2308,10.86
2312,10.85
2316,10.86
2320,10.86
2324,10.88
2328,10.91
2332,10.93
2336,10.95
2340,10.98
2344,11.01
2348,11.02
2352,11.02
2356,11.03
2360,11.05
2364,11.05
2368,11.04
2372,11.04
2376,11.06
2380,11.11
2384,11.18
2388,11.31
2392,11.47
2396,11.65
2400,11.84
2404,12.03
2408,12.2
2412,12.36
2416,12.52
2420,12.68
2424,12.85
2428,13.02
2432,13.17
2436,13.37
2440,13.59
2444,13.76
2448,13.89
2452,14.04
2456,14.19
2460,14.38
2464,14.59
2468,14.86
2472,15.16
2476,15.49
2480,15.81
2484,16.16
2488,16.73
2492,17.35
2496,17.78
2500,18.2