File: reference_lib/IronOxide_02.csv
Wavelength (nm),Reflectance (%)
448,3.6
452,3.64
456,3.4
460,3.1
464,2.5
468,1.68
472,1.43
476,1.37
480,0.78
484,0.3
488,0.25
492,0.26
496,0
500,0.36
504,0.54
508,0.98
512,1.39
516,1.87
520,2.81
524,4.09
528,5.55
532,7.13
536,9.03
540,10.95
544,12.9
548,14.88
552,16.89
556,19.02
560,20.98
564,22.77
568,24.38
572,25.8
576,27.05
580,28.15
584,29.12
588,29.9
592,30.55
596,31.05
600,31.49
604,31.9
608,32.23
612,32.47
616,32.77
620,33.07
624,33.34
628,33.58
632,33.82
636,34.1
640,34.41
644,34.76
648,35.09
652,35.56
656,36.09
660,36.63
664,37.21
668,37.85
672,38.56
676,39.31
680,40.1
684,40.99
688,41.9
692,42.88
696,43.9
700,44.92
704,45.95
708,47.01
712,48.09
716,49.13
720,50.17
724,51.18
728,52.15
732,53.12
736,54
740,54.8
744,55.5
748,56.14
752,56.7
756,57.13
760,57.45
764,57.63
768,57.72
772,57.69
776,57.55
780,57.33
784,57.05
788,56.74
792,56.32
796,55.81
800,55.24
804,54.62
808,53.97
812,53.3
816,52.63
820,51.99
824,51.37
828,50.74
832,50.11
836,49.51
840,48.98
844,48.46
848,47.97
852,47.5
856,47.04
860,46.6
864,46.16
868,45.73
872,45.41
876,45.09
880,44.81
884,44.57
888,44.37
892,44.17
896,43.99
900,43.85
904,43.77
908,43.73
912,43.68
916,43.66
920,43.64
924,43.64
928,43.71
932,43.81
936,43.89
940,44.06
944,44.24
948,44.43
952,44.61
956,44.85
960,45.11
964,45.4
968,45.7
972,46.02
976,46.35
980,46.69
984,47.04
988,47.4
992,47.78
996,48.19
1000,48.61
1004,49.05
1008,49.52
1012,50.01
1016,50.52
1020,51.06
1024,51.61
1028,52.17
1032,52.74
1036,53.34
1040,53.95
1044,54.58
1048,55.22
1052,55.9
1056,56.6
1060,57.31
1064,58.04
1068,58.78
1072,59.53
1076,60.31
1080,61.12
1084,61.97
1088,62.82
1092,63.7
1096,64.57
1100,65.44
1104,66.31
1108,67.18
1112,68.06
1116,68.96
1120,69.88
1124,70.82
1128,71.77
1132,72.72
1136,73.66
1140,74.57
1144,75.48
1148,76.37
1152,77.24
1156,78.08
1160,78.89
1164,79.67
1168,80.43
1172,81.2
1176,81.95
1180,82.71
1184,83.45
1188,84.14
1192,84.78
1196,85.4
1200,86
1204,86.57
1208,87.14
1212,87.71
1216,88.24
1220,88.73
1224,89.2
1228,89.65
1232,90.07
1236,90.47
1240,90.87
1244,91.23
1248,91.55
1252,91.85
1256,92.13
1260,92.38
1264,92.62
1268,92.85
1272,93.07
1276,93.26
1280,93.46
1284,93.64
1288,93.81
1292,93.96
1296,94.1
1300,94.24
1304,94.38
1308,94.51
1312,94.65
1316,94.78
1320,94.91
1324,95.05
1328,95.18
1332,95.3
1336,95.38
1340,95.43
1344,95.45
1348,95.43
1352,95.38
1356,95.38
1360,95.43
1364,95.49
1368,95.51
1372,95.54
1376,95.58
1380,95.61
1384,95.62
1388,95.64
1392,95.7
1396,95.76
1400,95.76
1404,95.74
1408,95.72
1412,95.7
1416,95.69
1420,95.7
1424,95.7
1428,95.78
1432,95.84
1436,95.87
1440,95.9
1444,95.97
1448,96.05
1452,96.15
1456,96.25
1460,96.42
1464,96.58
1468,96.76
1472,96.94
1476,97.13
1480,97.31
1484,97.42
1488,97.49
1492,97.56
1496,97.63
1500,97.69
1504,97.76
1508,97.83
1512,97.96
1516,98.08
1520,98.2
1524,98.32
1528,98.42
1532,98.5
1536,98.53
1540,98.56
1544,98.62
1548,98.69
1552,98.76
1556,98.82
1560,98.87
1564,98.9
1568,98.9
1572,98.88
1576,98.88
1580,98.88
1584,98.88
1588,98.84
1592,98.8
1596,98.8
1600,98.83
1604,98.83
1608,98.83
1612,98.81
1616,98.75
1620,98.68
1624,98.59
1628,98.52
1632,98.41
1636,98.3
1640,98.22
1644,98.13
1648,98.07
1652,98.16
1656,98.25
1660,98.35
1664,98.39
1668,98.48
1672,98.53
1676,98.47
1680,98.39
1684,98.29
1688,98.22
1692,98.17
1696,98.14
1700,98.14
1704,98.19
1708,98.17
1712,98.13
1716,98.09
1720,98.09
1724,98.1
1728,98.09
1732,98.1
1736,98.12
1740,98.11
1744,98.06
1748,98.08
1752,98.07
1756,98.04
1760,97.99
1764,97.94
1768,97.87
1772,97.82
1776,97.77
1780,97.76
1784,97.78
1788,97.8
1792,97.82
1796,97.83
1800,97.82
1804,97.8
1808,97.78
1812,97.86
1816,97.95
1820,98.01
1824,98.07
1828,98.11
1832,98.1
1836,98.1
1840,98.1
1844,98.19
1848,98.29
1852,98.25
1856,98.18
1860,98.08
1864,97.88
1868,97.64
1872,97.37
1876,97.09
1880,96.91
1884,96.61
1888,96.27
1892,95.87
1896,95.4
1900,94.82
1904,94.28
1908,93.78
1912,93.4
1916,93.22
1920,93.13
1924,93.15
1928,93.29
1932,93.42
1936,93.53
1940,93.65
1944,93.77
1948,93.87
1952,93.98
1956,93.99
1960,94.06
1964,94.16
1968,94.29
1972,94.43
1976,94.57
1980,94.66
1984,94.83
1988,94.91
1992,95.04
1996,95.17
2000,95.36
2004,95.58
2008,95.72
2012,95.86
2016,96.11
2020,96.38
2024,96.63
2028,96.87
2032,97.05
2036,97.27
2040,97.5
2044,97.68
2048,97.97
2052,98.27
2056,98.45
2060,98.54
2064,98.67
2068,98.71
2072,98.76
2076,98.83
2080,98.88
2084,98.96
2088,99.06
2092,99.14
2096,99.27
2100,99.46
2104,99.56
2108,99.76
2112,99.96
2116,100
2120,99.97
2124,99.97
2128,99.99
2132,100
2136,99.98
2140,99.87
2144,99.74
2148,99.59
2152,99.39
2156,99.21
2160,99.08
2164,98.96
2168,98.83
2172,98.61
2176,98.28
2180,97.98
2184,97.69
2188,97.55
2192,97.12
2196,96.65
2200,96.25
2204,95.93
2208,95.61
2212,95.34
2216,95.22
2220,95.15
2224,95.18
2228,94.88
2232,94.72
2236,94.58
2240,94.42
2244,94.16
2248,93.86
2252,93.54
2256,93.15
2260,92.75
2264,92.4
2268,92.14
2272,91.91
2276,91.77
2280,91.58
2284,91.32
2288,91.07
2292,90.86
2296,90.54
2300,90.2
2304,89.88
2308,89.58
2312,89.32
2316,89.06
2320,88.85
2324,88.76
2328,88.69
2332,88.5
2336,88.34
2340,88.19
2344,88.04
2348,87.83
2352,87.55
2356,87.23
2360,86.87
2364,86.46
2368,86.11
2372,85.77
2376,85.51
2380,85.3
2384,85.07
2388,84.84
2392,84.62
2396,84.4
2400,84.2
2404,83.97
2408,83.77
2412,83.6
2416,83.42
2420,83.33
2424,83.21
2428,83.1
2432,83.02
2436,82.94
2440,82.87
2444,82.82
2448,82.72
2452,82.61
2456,82.63
2460,82.62
2464,82.66
2468,82.71
2472,82.79
2476,82.87
2480,82.88
2484,82.89