File: example_ref_library/Hydrous-Silica_01.csv
Wavelength (nm),Reflectance (%)
448,50.41
452,50.57
456,50.79
460,50.87
464,50.92
468,51.11
472,51.33
476,51.5
480,51.74
484,51.92
488,52.01
492,52.07
496,52.07
500,52.07
504,52.14
508,52.15
512,52.12
516,52.03
520,51.96
524,51.86
528,51.74
532,51.64
536,51.55
540,51.45
544,51.27
548,51.14
552,51.02
556,50.88
560,50.69
564,50.43
568,50.29
572,50.22
576,50.15
580,50.11
584,50.01
588,49.9
592,49.75
596,49.65
600,49.61
604,49.51
608,49.42
612,49.36
616,49.3
620,49.27
624,49.27
628,49.23
632,49.16
636,49.12
640,49.06
644,49.05
648,48.96
652,48.92
656,48.88
660,48.87
664,48.76
668,48.68
672,48.6
676,48.51
680,48.46
684,48.42
688,48.39
692,48.38
696,48.3
700,48.2
704,48.15
708,48.1
712,47.99
716,47.89
720,47.94
724,48.02
728,48.08
732,48.01
736,47.98
740,47.92
744,47.88
748,47.85
752,47.84
756,47.85
760,47.82
764,47.75
768,47.68
772,47.62
776,47.63
780,47.67
784,47.61
788,47.52
792,47.42
796,47.35
800,47.31
804,47.25
808,47.23
812,47.2
816,47.2
820,47.07
824,46.87
828,46.63
832,46.45
836,46.33
840,46.16
844,45.96
848,45.71
852,45.48
856,45.29
860,45.13
864,44.95
868,44.75
872,44.51
876,44.36
880,44.25
884,44.19
888,44.16
892,44.09
896,43.98
900,43.93
904,43.9
908,43.88
912,43.85
916,43.86
920,43.87
924,43.87
928,43.9
932,43.87
936,43.87
940,43.91
944,43.92
948,43.91
952,43.86
956,43.81
960,43.8
964,43.77
968,43.76
972,43.72
976,43.69
980,43.64
984,43.59
988,43.54
992,43.51
996,43.49
1000,43.42
1004,43.34
1008,43.26
1012,43.23
1016,43.16
1020,43.04
1024,42.97
1028,42.9
1032,42.82
1036,42.8
1040,42.75
1044,42.69
1048,42.64
1052,42.61
1056,42.55
1060,42.45
1064,42.38
1068,42.34
1072,42.3
1076,42.25
1080,42.19
1084,42.17
1088,42.14
1092,42.12
1096,42.07
1100,42.04
1104,42
1108,41.95
1112,41.92
1116,41.91
1120,41.93
1124,41.96
1128,41.97
1132,41.96
1136,41.95
1140,41.93
1144,41.92
1148,41.9
1152,41.91
1156,41.96
1160,42
1164,42.01
1168,42.05
1172,42.05
1176,42.06
1180,42.1
1184,42.13
1188,42.17
1192,42.2
1196,42.23
1200,42.24
1204,42.26
1208,42.28
1212,42.29
1216,42.32
1220,42.35
1224,42.36
1228,42.36
1232,42.42
1236,42.49
1240,42.56
1244,42.6
1248,42.58
1252,42.61
1256,42.65
1260,42.67
1264,42.7
1268,42.72
1272,42.73
1276,42.75
1280,42.79
1284,42.79
1288,42.77
1292,42.82
1296,42.85
1300,42.86
1304,42.88
1308,42.92
1312,42.94
1316,42.93
1320,42.94
1324,42.95
1328,42.95
1332,42.92
1336,42.89
1340,42.87
1344,42.84
1348,42.82
1352,42.82
1356,42.82
1360,42.82
1364,42.8
1368,42.75
1372,42.71
1376,42.67
1380,42.58
1384,42.44
1388,42.2
1392,41.9
1396,41.51
1400,41.1
1404,40.73
1408,40.46
1412,40.35
1416,40.41
1420,40.5
1424,40.51
1428,40.43
1432,40.31
1436,40.22
1440,40.16
1444,40.11
1448,40.09
1452,40.07
1456,40.06
1460,40.06
1464,40.04
1468,40.09
1472,40.17
1476,40.25
1480,40.31
1484,40.36
1488,40.43
1492,40.53
1496,40.61
1500,40.7
1504,40.76
1508,40.78
1512,40.8
1516,40.8
1520,40.81
1524,40.82
1528,40.8
1532,40.84
1536,40.9
1540,40.95
1544,41.03
1548,41.09
1552,41.13
1556,41.15
1560,41.15
1564,41.17
1568,41.21
1572,41.24
1576,41.26
1580,41.25
1584,41.22
1588,41.22
1592,41.22
1596,41.2
1600,41.2
1604,41.2
1608,41.19
1612,41.18
1616,41.2
1620,41.25
1624,41.28
1628,41.3
1632,41.31
1636,41.31
1640,41.31
1644,41.29
1648,41.25
1652,41.23
1656,41.23
1660,41.28
1664,41.26
1668,41.24
1672,41.25
1676,41.27
1680,41.28
1684,41.25
1688,41.22
1692,41.12
1696,41
1700,40.92
1704,40.84
1708,40.72
1712,40.64
1716,40.54
1720,40.44
1724,40.37
1728,40.31
1732,40.27
1736,40.27
1740,40.23
1744,40.19
1748,40.12
1752,40.04
1756,39.98
1760,39.93
1764,39.92
1768,39.91
1772,39.9
1776,39.88
1780,39.86
1784,39.77
1788,39.68
1792,39.59
1796,39.5
1800,39.45
1804,39.39
1808,39.31
1812,39.24
1816,39.19
1820,39.16
1824,39.12
1828,39.06
1832,38.95
1836,38.83
1840,38.72
1844,38.66
1848,38.63
1852,38.55
1856,38.39
1860,38.18
1864,37.93
1868,37.59
1872,37.17
1876,36.74
1880,36.26
1884,35.72
1888,35.04
1892,34.23
1896,33.33
1900,32.45
1904,31.65
1908,30.96
1912,30.41
1916,29.94
1920,29.54
1924,29.17
1928,28.87
1932,28.69
1936,28.61
1940,28.6
1944,28.62
1948,28.64
1952,28.66
1956,28.73
1960,28.84
1964,29.01
1968,29.21
1972,29.43
1976,29.61
1980,29.8
1984,30.03
1988,30.28
1992,30.48
1996,30.7
2000,30.92
2004,31.22
2008,31.51
2012,31.79
2016,32.01
2020,32.23
2024,32.44
2028,32.63
2032,32.79
2036,32.97
2040,33.15
2044,33.39
2048,33.56
2052,33.68
2056,33.73
2060,33.8
2064,33.89
2068,33.96
2072,34.02
2076,34.08
2080,34.18
2084,34.29
2088,34.4
2092,34.45
2096,34.43
2100,34.42
2104,34.48
2108,34.51
2112,34.5
2116,34.5
2120,34.49
2124,34.45
2128,34.44
2132,34.4
2136,34.42
2140,34.37
2144,34.26
2148,34.14
2152,34
2156,33.88
2160,33.82
2164,33.78
2168,33.72
2172,33.66
2176,33.61
2180,33.49
2184,33.4
2188,33.31
2192,33.21
2196,33.12
2200,33.03
2204,32.93
2208,32.8
2212,32.71
2216,32.61
2220,32.53
2224,32.39
2228,32.29
2232,32.16
2236,32.02
2240,31.86
2244,31.66
2248,31.48
2252,31.3
2256,31.11
2260,30.95
2264,30.8
2268,30.74
2272,30.62
2276,30.48
2280,30.23
2284,29.96
2288,29.74
2292,29.6
2296,29.39
2300,29.18
2304,28.95
2308,28.7
2312,28.42
2316,28.17
2320,27.9
2324,27.6
2328,27.23
2332,26.89
2336,26.64
2340,26.58
2344,26.67
2348,26.89
2352,27.19
2356,27.51
2360,27.81
2364,28.11
2368,28.39
2372,28.48
2376,28.54
2380,28.59
2384,28.57
2388,28.53
2392,28.41
2396,28.33
2400,28.29
2404,28.25
2408,28.13
2412,27.92
2416,27.72
2420,27.49
2424,27.26
2428,27.06
2432,26.81
2436,26.66
2440,26.49
2444,26.35
2448,26.25
2452,26.04
2456,25.83
2460,25.58
2464,25.24
2468,24.88
2472,24.5
2476,24.22
2480,23.89
2484,23.59
2488,23.5
2492,23.52
2496,23.62
2500,23.67